test	trial	item	querytype	subtype	feature	accuracy
1	1	beta_novel3	novel	verbal	class	0
1	1	beta_novel3	novel	visual	v2	0
1	2	beta3	unique	visual	v3	1
1	2	beta3	shared	visual	v5	0
1	3	alpha1	unique	verbal	code	0
1	3	alpha1	shared	visual	v1	1
1	4	gamma1	shared	verbal	class	1
1	4	gamma1	shared	visual	v1	0
1	5	gamma4	shared	visual	v3	0
1	5	gamma4	unique	visual	v4	0
1	6	gamma2	unique	verbal	code	1
1	6	gamma2	shared	visual	v3	0
1	7	gamma_novel3	novel	visual	v4	0
1	7	gamma_novel3	novel	visual	v5	0
1	8	gamma_novel1	novel	visual	v2	1
1	8	gamma_novel1	novel	visual	v3	1
1	9	alpha_novel3	novel	visual	v3	0
1	9	alpha_novel3	novel	visual	v4	0
1	10	gamma4	unique	verbal	code	1
1	10	gamma4	shared	visual	v2	0
1	11	gamma3	unique	verbal	code	1
1	11	gamma3	shared	visual	v4	1
1	12	gamma2	shared	visual	v1	0
1	12	gamma2	unique	visual	v2	1
1	13	gamma_novel2	novel	visual	v3	1
1	13	gamma_novel2	novel	visual	v4	1
1	14	beta5	shared	visual	v4	0
1	14	beta5	unique	visual	v5	0
1	15	gamma3	unique	visual	v3	1
1	15	gamma3	shared	visual	v5	0
1	16	beta1	unique	verbal	code	1
1	16	beta1	shared	visual	v1	1
1	17	alpha_novel2	novel	visual	v2	1
1	17	alpha_novel2	novel	visual	v3	0
1	18	beta_novel1	novel	visual	v4	1
1	18	beta_novel1	novel	visual	v5	0
1	19	alpha4	shared	visual	v3	1
1	19	alpha4	unique	visual	v4	1
1	20	alpha5	unique	verbal	code	1
1	20	alpha5	shared	verbal	class	1
1	21	gamma5	shared	visual	v4	0
1	21	gamma5	unique	visual	v5	1
1	22	beta4	unique	verbal	code	0
1	22	beta4	shared	visual	v2	1
1	23	beta3	unique	verbal	code	1
1	23	beta3	shared	visual	v4	0
1	24	alpha3	unique	verbal	code	0
1	24	alpha3	shared	visual	v4	0
1	25	alpha5	shared	visual	v2	1
1	25	alpha5	unique	visual	v5	1
1	26	alpha3	unique	visual	v3	0
1	26	alpha3	shared	visual	v5	0
1	27	beta2	unique	verbal	code	0
1	27	beta2	shared	visual	v3	0
1	28	alpha2	shared	visual	v1	1
1	28	alpha2	unique	visual	v2	1
1	29	alpha2	unique	verbal	code	1
1	29	alpha2	shared	visual	v3	1
1	30	beta4	shared	verbal	class	0
1	30	beta4	unique	visual	v4	0
1	31	alpha4	unique	verbal	code	0
1	31	alpha4	shared	visual	v2	0
1	32	gamma5	unique	verbal	code	0
1	32	gamma5	shared	verbal	class	0
1	33	alpha_novel1	novel	verbal	class	1
1	33	alpha_novel1	novel	visual	v2	0
1	34	beta_novel2	novel	verbal	class	1
1	34	beta_novel2	novel	visual	v5	0
1	35	beta2	unique	visual	v2	0
1	35	beta2	shared	visual	v5	0
1	36	beta5	unique	verbal	code	1
1	36	beta5	shared	verbal	class	1
1	37	alpha1	shared	verbal	class	0
1	37	alpha1	shared	visual	v1	0
1	38	beta1	shared	verbal	class	1
1	38	beta1	shared	visual	v1	1
1	39	gamma1	unique	verbal	code	0
1	39	gamma1	shared	visual	v1	1
2	1	beta3	unique	visual	v3	0
2	1	beta3	shared	visual	v5	1
2	2	beta5	unique	verbal	code	0
2	2	beta5	shared	verbal	class	1
2	3	alpha1	unique	verbal	code	0
2	3	alpha1	shared	visual	v1	1
2	4	gamma4	unique	verbal	code	0
2	4	gamma4	shared	visual	v2	1
2	5	alpha2	shared	visual	v1	1
2	5	alpha2	unique	visual	v2	1
2	6	beta_novel2	novel	verbal	class	0
2	6	beta_novel2	novel	visual	v5	0
2	7	gamma3	unique	visual	v3	0
2	7	gamma3	shared	visual	v5	1
2	8	gamma1	shared	verbal	class	1
2	8	gamma1	shared	visual	v1	1
2	9	alpha3	unique	verbal	code	0
2	9	alpha3	shared	visual	v4	1
2	10	beta_novel1	novel	visual	v4	0
2	10	beta_novel1	novel	visual	v5	0
2	11	alpha_novel3	novel	visual	v3	0
2	11	alpha_novel3	novel	visual	v4	0
2	12	alpha5	unique	verbal	code	1
2	12	alpha5	shared	verbal	class	1
2	13	gamma4	shared	visual	v3	1
2	13	gamma4	unique	visual	v4	1
2	14	alpha1	shared	verbal	class	1
2	14	alpha1	shared	visual	v1	1
2	15	alpha5	shared	visual	v2	1
2	15	alpha5	unique	visual	v5	1
2	16	alpha4	shared	visual	v3	0
2	16	alpha4	unique	visual	v4	0
2	17	beta5	shared	visual	v4	0
2	17	beta5	unique	visual	v5	0
2	18	gamma2	shared	visual	v1	1
2	18	gamma2	unique	visual	v2	1
2	19	gamma1	unique	verbal	code	0
2	19	gamma1	shared	visual	v1	1
2	20	beta2	unique	visual	v2	0
2	20	beta2	shared	visual	v5	0
2	21	beta4	unique	verbal	code	0
2	21	beta4	shared	visual	v2	1
2	22	alpha3	unique	visual	v3	1
2	22	alpha3	shared	visual	v5	1
2	23	alpha_novel1	novel	verbal	class	0
2	23	alpha_novel1	novel	visual	v2	1
2	24	gamma5	shared	visual	v4	1
2	24	gamma5	unique	visual	v5	1
2	25	gamma_novel3	novel	visual	v4	1
2	25	gamma_novel3	novel	visual	v5	1
2	26	beta4	shared	verbal	class	0
2	26	beta4	unique	visual	v4	0
2	27	beta1	unique	verbal	code	0
2	27	beta1	shared	visual	v1	1
2	28	beta2	unique	verbal	code	0
2	28	beta2	shared	visual	v3	0
2	29	alpha4	unique	verbal	code	1
2	29	alpha4	shared	visual	v2	1
2	30	alpha_novel2	novel	visual	v2	0
2	30	alpha_novel2	novel	visual	v3	0
2	31	beta1	shared	verbal	class	1
2	31	beta1	shared	visual	v1	1
2	32	gamma_novel1	novel	visual	v2	1
2	32	gamma_novel1	novel	visual	v3	1
2	33	gamma2	unique	verbal	code	0
2	33	gamma2	shared	visual	v3	1
2	34	gamma3	unique	verbal	code	1
2	34	gamma3	shared	visual	v4	1
2	35	alpha2	unique	verbal	code	1
2	35	alpha2	shared	visual	v3	1
2	36	gamma5	unique	verbal	code	0
2	36	gamma5	shared	verbal	class	0
2	37	gamma_novel2	novel	visual	v3	1
2	37	gamma_novel2	novel	visual	v4	1
2	38	beta_novel3	novel	verbal	class	1
2	38	beta_novel3	novel	visual	v2	1
2	39	beta3	unique	verbal	code	0
2	39	beta3	shared	visual	v4	0
