test	trial	item	querytype	subtype	feature	accuracy
1	1	gamma2	shared	visual	v1	1
1	1	gamma2	unique	visual	v2	1
1	2	gamma4	unique	verbal	code	1
1	2	gamma4	shared	visual	v2	1
1	3	alpha1	unique	verbal	code	1
1	3	alpha1	shared	visual	v1	1
1	4	alpha2	shared	visual	v1	1
1	4	alpha2	unique	visual	v2	1
1	5	beta1	shared	verbal	class	1
1	5	beta1	shared	visual	v1	1
1	6	gamma_novel2	novel	visual	v3	1
1	6	gamma_novel2	novel	visual	v4	1
1	7	alpha_novel1	novel	verbal	class	1
1	7	alpha_novel1	novel	visual	v2	1
1	8	gamma4	shared	visual	v3	1
1	8	gamma4	unique	visual	v4	1
1	9	gamma1	shared	verbal	class	1
1	9	gamma1	shared	visual	v1	1
1	10	gamma_novel1	novel	visual	v2	1
1	10	gamma_novel1	novel	visual	v3	1
1	11	beta_novel2	novel	verbal	class	1
1	11	beta_novel2	novel	visual	v5	1
1	12	alpha5	shared	visual	v2	1
1	12	alpha5	unique	visual	v5	0
1	13	alpha_novel2	novel	visual	v2	1
1	13	alpha_novel2	novel	visual	v3	1
1	14	alpha3	unique	visual	v3	0
1	14	alpha3	shared	visual	v5	0
1	15	beta2	unique	visual	v2	1
1	15	beta2	shared	visual	v5	1
1	16	alpha5	unique	verbal	code	1
1	16	alpha5	shared	verbal	class	1
1	17	alpha3	unique	verbal	code	1
1	17	alpha3	shared	visual	v4	1
1	18	beta3	unique	verbal	code	1
1	18	beta3	shared	visual	v4	0
1	19	gamma1	unique	verbal	code	0
1	19	gamma1	shared	visual	v1	1
1	20	beta4	shared	verbal	class	1
1	20	beta4	unique	visual	v4	0
1	21	beta5	shared	visual	v4	0
1	21	beta5	unique	visual	v5	1
1	22	alpha2	unique	verbal	code	1
1	22	alpha2	shared	visual	v3	1
1	23	alpha_novel3	novel	visual	v3	1
1	23	alpha_novel3	novel	visual	v4	1
1	24	gamma3	unique	verbal	code	1
1	24	gamma3	shared	visual	v4	1
1	25	beta4	unique	verbal	code	0
1	25	beta4	shared	visual	v2	1
1	26	beta2	unique	verbal	code	1
1	26	beta2	shared	visual	v3	0
1	27	beta_novel3	novel	verbal	class	1
1	27	beta_novel3	novel	visual	v2	1
1	28	gamma5	unique	verbal	code	0
1	28	gamma5	shared	verbal	class	1
1	29	beta_novel1	novel	visual	v4	1
1	29	beta_novel1	novel	visual	v5	1
1	30	beta3	unique	visual	v3	0
1	30	beta3	shared	visual	v5	1
1	31	gamma2	unique	verbal	code	1
1	31	gamma2	shared	visual	v3	0
1	32	beta1	unique	verbal	code	1
1	32	beta1	shared	visual	v1	1
1	33	gamma_novel3	novel	visual	v4	1
1	33	gamma_novel3	novel	visual	v5	1
1	34	gamma5	shared	visual	v4	1
1	34	gamma5	unique	visual	v5	1
1	35	gamma3	unique	visual	v3	0
1	35	gamma3	shared	visual	v5	1
1	36	alpha4	unique	verbal	code	1
1	36	alpha4	shared	visual	v2	1
1	37	alpha4	shared	visual	v3	0
1	37	alpha4	unique	visual	v4	1
1	38	beta5	unique	verbal	code	1
1	38	beta5	shared	verbal	class	1
1	39	alpha1	shared	verbal	class	1
1	39	alpha1	shared	visual	v1	1
2	1	gamma_novel3	novel	visual	v4	1
2	1	gamma_novel3	novel	visual	v5	1
2	2	beta5	shared	visual	v4	0
2	2	beta5	unique	visual	v5	0
2	3	gamma_novel2	novel	visual	v3	1
2	3	gamma_novel2	novel	visual	v4	1
2	4	gamma3	unique	visual	v3	0
2	4	gamma3	shared	visual	v5	0
2	5	alpha_novel1	novel	verbal	class	1
2	5	alpha_novel1	novel	visual	v2	1
2	6	gamma4	unique	verbal	code	1
2	6	gamma4	shared	visual	v2	1
2	7	beta3	unique	verbal	code	0
2	7	beta3	shared	visual	v4	0
2	8	alpha1	unique	verbal	code	0
2	8	alpha1	shared	visual	v1	1
2	9	beta_novel2	novel	verbal	class	1
2	9	beta_novel2	novel	visual	v5	1
2	10	alpha1	shared	verbal	class	1
2	10	alpha1	shared	visual	v1	1
2	11	gamma5	unique	verbal	code	0
2	11	gamma5	shared	verbal	class	1
2	12	alpha4	unique	verbal	code	0
2	12	alpha4	shared	visual	v2	0
2	13	gamma3	unique	verbal	code	1
2	13	gamma3	shared	visual	v4	0
2	14	gamma1	shared	verbal	class	1
2	14	gamma1	shared	visual	v1	1
2	15	gamma5	shared	visual	v4	1
2	15	gamma5	unique	visual	v5	1
2	16	gamma2	unique	verbal	code	0
2	16	gamma2	shared	visual	v3	0
2	17	beta_novel1	novel	visual	v4	1
2	17	beta_novel1	novel	visual	v5	0
2	18	beta_novel3	novel	verbal	class	1
2	18	beta_novel3	novel	visual	v2	1
2	19	beta1	shared	verbal	class	1
2	19	beta1	shared	visual	v1	1
2	20	gamma1	unique	verbal	code	1
2	20	gamma1	shared	visual	v1	1
2	21	alpha5	unique	verbal	code	0
2	21	alpha5	shared	verbal	class	1
2	22	beta4	unique	verbal	code	0
2	22	beta4	shared	visual	v2	0
2	23	alpha3	unique	verbal	code	0
2	23	alpha3	shared	visual	v4	1
2	24	gamma_novel1	novel	visual	v2	1
2	24	gamma_novel1	novel	visual	v3	1
2	25	alpha5	shared	visual	v2	1
2	25	alpha5	unique	visual	v5	0
2	26	beta2	unique	visual	v2	1
2	26	beta2	shared	visual	v5	1
2	27	gamma2	shared	visual	v1	1
2	27	gamma2	unique	visual	v2	1
2	28	alpha_novel3	novel	visual	v3	1
2	28	alpha_novel3	novel	visual	v4	1
2	29	beta4	shared	verbal	class	1
2	29	beta4	unique	visual	v4	1
2	30	alpha3	unique	visual	v3	0
2	30	alpha3	shared	visual	v5	0
2	31	beta1	unique	verbal	code	0
2	31	beta1	shared	visual	v1	1
2	32	alpha_novel2	novel	visual	v2	1
2	32	alpha_novel2	novel	visual	v3	1
2	33	alpha2	shared	visual	v1	1
2	33	alpha2	unique	visual	v2	1
2	34	alpha4	shared	visual	v3	0
2	34	alpha4	unique	visual	v4	0
2	35	alpha2	unique	verbal	code	1
2	35	alpha2	shared	visual	v3	1
2	36	gamma4	shared	visual	v3	1
2	36	gamma4	unique	visual	v4	1
2	37	beta5	unique	verbal	code	1
2	37	beta5	shared	verbal	class	1
2	38	beta2	unique	verbal	code	1
2	38	beta2	shared	visual	v3	0
2	39	beta3	unique	visual	v3	0
2	39	beta3	shared	visual	v5	1
