test	trial	item	querytype	subtype	feature	accuracy
1	1	gamma2	unique	verbal	code	1
1	1	gamma2	shared	visual	v3	1
1	2	gamma_novel1	novel	visual	v2	0
1	2	gamma_novel1	novel	visual	v3	1
1	3	alpha1	unique	verbal	code	1
1	3	alpha1	shared	visual	v1	1
1	4	gamma_novel3	novel	visual	v4	0
1	4	gamma_novel3	novel	visual	v5	0
1	5	beta2	unique	verbal	code	1
1	5	beta2	shared	visual	v3	1
1	6	beta5	shared	visual	v4	1
1	6	beta5	unique	visual	v5	0
1	7	alpha3	unique	visual	v3	1
1	7	alpha3	shared	visual	v5	1
1	8	alpha2	shared	visual	v1	1
1	8	alpha2	unique	visual	v2	1
1	9	gamma4	unique	verbal	code	0
1	9	gamma4	shared	visual	v2	0
1	10	beta1	unique	verbal	code	1
1	10	beta1	shared	visual	v1	1
1	11	beta4	shared	verbal	class	1
1	11	beta4	unique	visual	v4	1
1	12	alpha2	unique	verbal	code	1
1	12	alpha2	shared	visual	v3	0
1	13	beta1	shared	verbal	class	1
1	13	beta1	shared	visual	v1	1
1	14	beta_novel1	novel	visual	v4	1
1	14	beta_novel1	novel	visual	v5	1
1	15	alpha3	unique	verbal	code	1
1	15	alpha3	shared	visual	v4	0
1	16	beta_novel3	novel	verbal	class	1
1	16	beta_novel3	novel	visual	v2	1
1	17	alpha5	unique	verbal	code	1
1	17	alpha5	shared	verbal	class	1
1	18	alpha5	shared	visual	v2	1
1	18	alpha5	unique	visual	v5	1
1	19	gamma2	shared	visual	v1	1
1	19	gamma2	unique	visual	v2	1
1	20	alpha1	shared	verbal	class	0
1	20	alpha1	shared	visual	v1	0
1	21	gamma5	unique	verbal	code	0
1	21	gamma5	shared	verbal	class	1
1	22	beta2	unique	visual	v2	1
1	22	beta2	shared	visual	v5	1
1	23	gamma1	shared	verbal	class	0
1	23	gamma1	shared	visual	v1	1
1	24	beta5	unique	verbal	code	1
1	24	beta5	shared	verbal	class	1
1	25	beta_novel2	novel	verbal	class	1
1	25	beta_novel2	novel	visual	v5	1
1	26	alpha4	unique	verbal	code	1
1	26	alpha4	shared	visual	v2	1
1	27	alpha_novel1	novel	verbal	class	0
1	27	alpha_novel1	novel	visual	v2	0
1	28	beta3	unique	verbal	code	1
1	28	beta3	shared	visual	v4	1
1	29	gamma5	shared	visual	v4	0
1	29	gamma5	unique	visual	v5	0
1	30	beta3	unique	visual	v3	1
1	30	beta3	shared	visual	v5	1
1	31	gamma_novel2	novel	visual	v3	0
1	31	gamma_novel2	novel	visual	v4	1
1	32	gamma1	unique	verbal	code	1
1	32	gamma1	shared	visual	v1	1
1	33	gamma3	unique	verbal	code	0
1	33	gamma3	shared	visual	v4	0
1	34	alpha_novel3	novel	visual	v3	0
1	34	alpha_novel3	novel	visual	v4	0
1	35	beta4	unique	verbal	code	1
1	35	beta4	shared	visual	v2	1
1	36	alpha4	shared	visual	v3	0
1	36	alpha4	unique	visual	v4	1
1	37	gamma3	unique	visual	v3	0
1	37	gamma3	shared	visual	v5	1
1	38	alpha_novel2	novel	visual	v2	0
1	38	alpha_novel2	novel	visual	v3	0
1	39	gamma4	shared	visual	v3	0
1	39	gamma4	unique	visual	v4	0
2	1	gamma_novel1	novel	visual	v2	1
2	1	gamma_novel1	novel	visual	v3	1
2	2	beta4	shared	verbal	class	1
2	2	beta4	unique	visual	v4	1
2	3	beta_novel3	novel	verbal	class	1
2	3	beta_novel3	novel	visual	v2	1
2	4	gamma2	shared	visual	v1	1
2	4	gamma2	unique	visual	v2	1
2	5	gamma5	shared	visual	v4	0
2	5	gamma5	unique	visual	v5	0
2	6	gamma3	unique	verbal	code	0
2	6	gamma3	shared	visual	v4	0
2	7	gamma_novel3	novel	visual	v4	1
2	7	gamma_novel3	novel	visual	v5	1
2	8	gamma_novel2	novel	visual	v3	1
2	8	gamma_novel2	novel	visual	v4	1
2	9	beta_novel1	novel	visual	v4	1
2	9	beta_novel1	novel	visual	v5	1
2	10	gamma5	unique	verbal	code	1
2	10	gamma5	shared	verbal	class	1
2	11	gamma4	unique	verbal	code	0
2	11	gamma4	shared	visual	v2	1
2	12	alpha4	unique	verbal	code	1
2	12	alpha4	shared	visual	v2	1
2	13	beta2	unique	verbal	code	1
2	13	beta2	shared	visual	v3	1
2	14	beta5	shared	visual	v4	0
2	14	beta5	unique	visual	v5	1
2	15	gamma4	shared	visual	v3	1
2	15	gamma4	unique	visual	v4	0
2	16	gamma2	unique	verbal	code	1
2	16	gamma2	shared	visual	v3	1
2	17	alpha_novel3	novel	visual	v3	1
2	17	alpha_novel3	novel	visual	v4	1
2	18	beta_novel2	novel	verbal	class	1
2	18	beta_novel2	novel	visual	v5	1
2	19	alpha5	shared	visual	v2	1
2	19	alpha5	unique	visual	v5	1
2	20	beta5	unique	verbal	code	1
2	20	beta5	shared	verbal	class	1
2	21	alpha5	unique	verbal	code	1
2	21	alpha5	shared	verbal	class	1
2	22	beta4	unique	verbal	code	1
2	22	beta4	shared	visual	v2	1
2	23	alpha1	unique	verbal	code	1
2	23	alpha1	shared	visual	v1	1
2	24	alpha3	unique	verbal	code	1
2	24	alpha3	shared	visual	v4	1
2	25	beta1	shared	verbal	class	1
2	25	beta1	shared	visual	v1	1
2	26	beta2	unique	visual	v2	1
2	26	beta2	shared	visual	v5	1
2	27	alpha1	shared	verbal	class	1
2	27	alpha1	shared	visual	v1	1
2	28	alpha_novel2	novel	visual	v2	1
2	28	alpha_novel2	novel	visual	v3	1
2	29	beta3	unique	visual	v3	1
2	29	beta3	shared	visual	v5	1
2	30	alpha2	unique	verbal	code	1
2	30	alpha2	shared	visual	v3	1
2	31	alpha3	unique	visual	v3	1
2	31	alpha3	shared	visual	v5	1
2	32	gamma3	unique	visual	v3	1
2	32	gamma3	shared	visual	v5	1
2	33	gamma1	shared	verbal	class	1
2	33	gamma1	shared	visual	v1	1
2	34	alpha_novel1	novel	verbal	class	1
2	34	alpha_novel1	novel	visual	v2	1
2	35	gamma1	unique	verbal	code	0
2	35	gamma1	shared	visual	v1	1
2	36	alpha4	shared	visual	v3	1
2	36	alpha4	unique	visual	v4	1
2	37	alpha2	shared	visual	v1	1
2	37	alpha2	unique	visual	v2	1
2	38	beta1	unique	verbal	code	1
2	38	beta1	shared	visual	v1	1
2	39	beta3	unique	verbal	code	1
2	39	beta3	shared	visual	v4	1
